#  F110W  wavelength (A)   throughput  
    4065.690  0.
    4114.690    0.0000e+00
    4163.690    0.0000e+00
    4212.690    0.0000e+00
    4261.690    0.0000e+00
    4310.690    0.0000e+00
    4359.690    0.0000e+00
    4408.690    0.0000e+00
    4457.690    0.0000e+00
    4506.690    0.0000e+00
    4555.690    0.0000e+00
    4604.690    0.0000e+00
    4653.690    0.0000e+00
    4702.690    0.0000e+00
    4751.690    0.0000e+00
    4800.690    0.0000e+00
    4849.690    0.0000e+00
    4898.690    0.0000e+00
    4947.690    0.0000e+00
    4996.690    0.0000e+00
    5045.690    0.0000e+00
    5094.690    0.0000e+00
    5143.690    0.0000e+00
    5192.690    0.0000e+00
    5241.690    0.0000e+00
    5290.690    0.0000e+00
    5339.690    0.0000e+00
    5388.690    0.0000e+00
    5437.690    0.0000e+00
    5486.690    0.0000e+00
    5535.690    0.0000e+00
    5584.690    0.0000e+00
    5633.690    0.0000e+00
    5682.690    0.0000e+00
    5731.690    0.0000e+00
    5780.690    0.0000e+00
    5829.690    0.0000e+00
    5878.690    0.0000e+00
    5927.690    0.0000e+00
    5976.690    0.0000e+00
    6025.690    0.0000e+00
    6074.690    0.0000e+00
    6123.690    0.0000e+00
    6172.690    0.0000e+00
    6221.690    0.0000e+00
    6270.690    0.0000e+00
    6319.690    0.0000e+00
    6368.690    0.0000e+00
    6417.690    0.0000e+00
    6466.690    0.0000e+00
    6515.690    0.0000e+00
    6564.690    0.0000e+00
    6613.690    0.0000e+00
    6662.690    0.0000e+00
    6711.690    0.0000e+00
    6760.690    0.0000e+00
    6809.690    0.0000e+00
    6858.690    0.0000e+00
    6907.690    0.0000e+00
    6956.690    0.0000e+00
    7005.690    0.0000e+00
    7054.690    0.0000e+00
    7103.690    0.0000e+00
    7152.690    0.0000e+00
    7201.690    0.0000e+00
    7250.690    0.0000e+00
    7299.690    0.0000e+00
    7348.690    0.0000e+00
    7397.690    0.0000e+00
    7446.690    0.0000e+00
    7495.690    0.0000e+00
    7544.690    0.0000e+00
    7593.690    0.0000e+00
    7642.690    0.0000e+00
    7691.690    0.0000e+00
    7740.690    0.0000e+00
    7789.690    0.0000e+00
    7838.690    0.0000e+00
    7887.690    0.0000e+00
    7936.690    0.0000e+00
    7985.690    0.0000e+00
    8034.690    3.0682e-07
    8083.690    2.4831e-08
    8132.690    4.7890e-07
    8181.690    2.2165e-07
    8230.690    6.8390e-07
    8279.690    6.7145e-07
    8328.690    9.3493e-07
    8377.690    1.1493e-06
    8426.690    9.7030e-07
    8475.690    8.7017e-07
    8524.690    5.8731e-06
    8573.690    1.7897e-05
    8622.690    2.9934e-05
    8671.690    1.4035e-04
    8720.690    3.2550e-04
    8769.690    1.0268e-03
    8818.690    3.7351e-03
    8867.690    1.6279e-02
    8916.690    6.1473e-02
    8965.690    1.5720e-01
    9014.690    2.7435e-01
    9063.690    3.4408e-01
    9112.690    3.5337e-01
    9161.690    3.5511e-01
    9210.690    3.8029e-01
    9259.690    4.0031e-01
    9308.690    3.9521e-01
    9357.690    3.9210e-01
    9406.690    4.0979e-01
    9455.690    4.2242e-01
    9504.690    4.1717e-01
    9553.690    4.1574e-01
    9602.690    4.2896e-01
    9651.690    4.3586e-01
    9700.690    4.2939e-01
    9749.690    4.2805e-01
    9798.690    4.3908e-01
    9847.690    4.4349e-01
    9896.690    4.3538e-01
    9945.690    4.3248e-01
    9994.690    4.4401e-01
   10043.690    4.5464e-01
   10092.690    4.4762e-01
   10141.690    4.3593e-01
   10190.690    4.4078e-01
   10239.690    4.6106e-01
   10288.690    4.7479e-01
   10337.690    4.7215e-01
   10386.690    4.6672e-01
   10435.690    4.7258e-01
   10484.690    4.8493e-01
   10533.690    4.8961e-01
   10582.690    4.8422e-01
   10631.690    4.8063e-01
   10680.690    4.8525e-01
   10729.690    4.9342e-01
   10778.690    4.9611e-01
   10827.690    4.9311e-01
   10876.690    4.9208e-01
   10925.690    4.9536e-01
   10974.690    4.9905e-01
   11023.690    4.9842e-01
   11072.690    4.9525e-01
   11121.690    4.9478e-01
   11170.690    4.9919e-01
   11219.690    5.0332e-01
   11268.690    5.0181e-01
   11317.690    4.9674e-01
   11366.690    4.9423e-01
   11415.690    4.9850e-01
   11464.690    5.0672e-01
   11513.690    5.1252e-01
   11562.690    5.1211e-01
   11611.690    5.0893e-01
   11660.690    5.0857e-01
   11709.690    5.1293e-01
   11758.690    5.1887e-01
   11807.690    5.2165e-01
   11856.690    5.2050e-01
   11905.690    5.1863e-01
   11954.690    5.1986e-01
   12003.690    5.2430e-01
   12052.690    5.2850e-01
   12101.690    5.2875e-01
   12150.690    5.2611e-01
   12199.690    5.2379e-01
   12248.690    5.2522e-01
   12297.690    5.3061e-01
   12346.690    5.3568e-01
   12395.690    5.3714e-01
   12444.690    5.3525e-01
   12493.690    5.3341e-01
   12542.690    5.3459e-01
   12591.690    5.3929e-01
   12640.690    5.4459e-01
   12689.690    5.4730e-01
   12738.690    5.4585e-01
   12787.690    5.4282e-01
   12836.690    5.4135e-01
   12885.690    5.4309e-01
   12934.690    5.4692e-01
   12983.690    5.4841e-01
   13032.690    5.4641e-01
   13081.690    5.4084e-01
   13130.690    5.3572e-01
   13179.690    5.3526e-01
   13228.690    5.4081e-01
   13277.690    5.5007e-01
   13326.690    5.5740e-01
   13375.690    5.5644e-01
   13424.690    5.4646e-01
   13473.690    5.3334e-01
   13522.690    5.2530e-01
   13571.690    5.2482e-01
   13620.690    5.2527e-01
   13669.690    5.1750e-01
   13718.690    5.0285e-01
   13767.690    4.9504e-01
   13816.690    4.9851e-01
   13865.690    5.0023e-01
   13914.690    4.8402e-01
   13963.690    4.6699e-01
   14012.690    2.8099e-01
   14061.690    5.9664e-02
   14110.690    8.0376e-03
   14159.690    1.6170e-03
   14208.690    4.0873e-04
   14257.690    1.3320e-04
   14306.690    5.9906e-05
   14355.690    4.5557e-05
   14404.690    3.1170e-05
   14453.690    1.6798e-05
   14502.690    2.4426e-06
   14551.690    1.1018e-06
   14600.690    1.2593e-06
   14649.690    1.4412e-06
   14698.690    8.7293e-07
   14747.690    7.6174e-07
   14796.690    2.7800e-07
   14845.690    2.3228e-07
   14894.690    1.0729e-06
   14943.690    2.0150e-07
   14992.690    5.6284e-07
   15041.690    1.5570e-07
   15090.690    2.8750e-07
   15139.690    5.5420e-07
   15188.690    1.1872e-06
   15237.690    4.6117e-07
   15286.690    4.0954e-07
   15335.690    8.3666e-07
   15384.690    4.8402e-07
   15433.690    1.0962e-06
   15482.690    1.9707e-07
   15531.690    9.1161e-07
   15580.690    7.2325e-07
   15629.690    4.8834e-07
   15678.690    1.5495e-07
   15727.690    7.3509e-07
   15776.690    4.4679e-07
   15825.690    2.6204e-07
   15874.690    6.4694e-07
   15923.690    6.5171e-07
   15972.690    1.6148e-07
   16021.690    4.7831e-07
   16070.690    3.6322e-07
   16119.690    4.3382e-07
   16168.690    3.3353e-07
   16217.690    4.1637e-07
   16266.690    9.7085e-07
   16315.690    1.1824e-06
   16364.690    1.1088e-07
   16413.690    9.2141e-07
   16462.690    5.6197e-07
   16511.690    3.5725e-07
   16560.690    1.2692e-07
   16609.690    8.6963e-08
   16658.690    5.0389e-07
   16707.690    7.6945e-07
   16756.690    8.7060e-07
   16805.690    1.0377e-07
   16854.690    8.0286e-07
   16903.690    2.1136e-07
   16952.690    3.5681e-07
   17001.690    3.0136e-07
   17050.690    9.3846e-07
   17099.690    1.2796e-06
   17148.690    3.5104e-07
   17197.690    2.0062e-07
   17246.690    3.6905e-07
   17295.690    2.2925e-07
   17344.690    1.7485e-07
   17393.690    3.2235e-07
   17442.690    3.7283e-07
   17491.690    4.2740e-07
   17540.690    3.1267e-07
   17589.690    1.0230e-07
   17638.690    1.7902e-07
   17687.690    1.2673e-07
   17736.690    5.5417e-08
   17785.690    9.1048e-08
   17834.690    1.1537e-07
   17883.690    9.2771e-08
   17932.690    1.3745e-07
   17981.690    1.5251e-07
   18030.690    0.0000e+00
   18079.690    0.0000e+00
   18128.690    0.0000e+00
   18177.690    0.0000e+00
   18226.690    0.0000e+00
   18275.690    0.0000e+00
   18324.690    0.0000e+00
   18373.690    0.0000e+00
   18422.690    0.0000e+00
   18471.690    0.0000e+00
   18520.690    0.0000e+00
   18569.690    0.0000e+00
   18618.690    0.0000e+00
   18667.690    0.0000e+00
   18716.690    0.0000e+00
   18765.690    0.0000e+00
   18814.690    0.0000e+00
   18863.690    0.0000e+00
   18912.690    0.0000e+00
   18961.690  0.
