#  F435W  wavelength (A)   throughput  
    3369.549  0.
    3375.549    1.7185e-07
    3381.549    1.7936e-07
    3387.549    1.8617e-07
    3393.549    1.9274e-07
    3399.549    1.9910e-07
    3405.549    2.0640e-07
    3411.549    2.1350e-07
    3417.549    2.1989e-07
    3423.549    2.2601e-07
    3429.549    2.3189e-07
    3435.549    2.3714e-07
    3441.549    2.4349e-07
    3447.549    2.5362e-07
    3453.549    2.6365e-07
    3459.549    2.7367e-07
    3465.549    2.8359e-07
    3471.549    2.9356e-07
    3477.549    3.0336e-07
    3483.549    1.3912e-06
    3489.549    3.3007e-06
    3495.549    5.3028e-06
    3501.549    7.3981e-06
    3507.549    9.5824e-06
    3513.549    1.1851e-05
    3519.549    1.4204e-05
    3525.549    7.1919e-05
    3531.549    1.3654e-04
    3537.549    2.0365e-04
    3543.549    2.7307e-04
    3549.549    3.4473e-04
    3555.549    4.1883e-04
    3561.549    5.0348e-04
    3567.549    6.1450e-04
    3573.549    7.2890e-04
    3579.549    8.4670e-04
    3585.549    1.1696e-03
    3591.549    1.6200e-03
    3597.549    2.3796e-03
    3603.549    3.3691e-03
    3609.549    4.5357e-03
    3615.549    5.6998e-03
    3621.549    6.9174e-03
    3627.549    8.2342e-03
    3633.549    1.0155e-02
    3639.549    1.2527e-02
    3645.549    1.6017e-02
    3651.549    1.9499e-02
    3657.549    2.2511e-02
    3663.549    2.4647e-02
    3669.549    2.6166e-02
    3675.549    2.8745e-02
    3681.549    3.1884e-02
    3687.549    3.6308e-02
    3693.549    4.0966e-02
    3699.549    4.5820e-02
    3705.549    4.8966e-02
    3711.549    5.2132e-02
    3717.549    5.5661e-02
    3723.549    5.9176e-02
    3729.549    6.2702e-02
    3735.549    7.0073e-02
    3741.549    7.7487e-02
    3747.549    8.3751e-02
    3753.549    8.9514e-02
    3759.549    9.4958e-02
    3765.549    9.8282e-02
    3771.549    1.0186e-01
    3777.549    1.0659e-01
    3783.549    1.1139e-01
    3789.549    1.1628e-01
    3795.549    1.2114e-01
    3801.549    1.2497e-01
    3807.549    1.2561e-01
    3813.549    1.3033e-01
    3819.549    1.3798e-01
    3825.549    1.4148e-01
    3831.549    1.4576e-01
    3837.549    1.5328e-01
    3843.549    1.5855e-01
    3849.549    1.6224e-01
    3855.549    1.6743e-01
    3861.549    1.7221e-01
    3867.549    1.7519e-01
    3873.549    1.7902e-01
    3879.549    1.8347e-01
    3885.549    1.8600e-01
    3891.549    1.8943e-01
    3897.549    1.9589e-01
    3903.549    2.0026e-01
    3909.549    2.0315e-01
    3915.549    2.0991e-01
    3921.549    2.1659e-01
    3927.549    2.2185e-01
    3933.549    2.2659e-01
    3939.549    2.3097e-01
    3945.549    2.3477e-01
    3951.549    2.3844e-01
    3957.549    2.4182e-01
    3963.549    2.4423e-01
    3969.549    2.4595e-01
    3975.549    2.4830e-01
    3981.549    2.5060e-01
    3987.549    2.5256e-01
    3993.549    2.5491e-01
    3999.549    2.5756e-01
    4005.549    2.5770e-01
    4011.549    2.5918e-01
    4017.549    2.6516e-01
    4023.549    2.6770e-01
    4029.549    2.6782e-01
    4035.549    2.7360e-01
    4041.549    2.7786e-01
    4047.549    2.7624e-01
    4053.549    2.7951e-01
    4059.549    2.8620e-01
    4065.549    2.8650e-01
    4071.549    2.8717e-01
    4077.549    2.9041e-01
    4083.549    2.8907e-01
    4089.549    2.8450e-01
    4095.549    2.8953e-01
    4101.549    2.9272e-01
    4107.549    2.8825e-01
    4113.549    2.8853e-01
    4119.549    2.9212e-01
    4125.549    2.9127e-01
    4131.549    2.9216e-01
    4137.549    2.9913e-01
    4143.549    3.0078e-01
    4149.549    2.9870e-01
    4155.549    3.0188e-01
    4161.549    3.0398e-01
    4167.549    3.0168e-01
    4173.549    3.0393e-01
    4179.549    3.0936e-01
    4185.549    3.0772e-01
    4191.549    3.0710e-01
    4197.549    3.1113e-01
    4203.549    3.1208e-01
    4209.549    3.1089e-01
    4215.549    3.1879e-01
    4221.549    3.2417e-01
    4227.549    3.2006e-01
    4233.549    3.2446e-01
    4239.549    3.3476e-01
    4245.549    3.2846e-01
    4251.549    3.2495e-01
    4257.549    3.3338e-01
    4263.549    3.3177e-01
    4269.549    3.2320e-01
    4275.549    3.2925e-01
    4281.549    3.3308e-01
    4287.549    3.2710e-01
    4293.549    3.2494e-01
    4299.549    3.2543e-01
    4305.549    3.1915e-01
    4311.549    3.1618e-01
    4317.549    3.2433e-01
    4323.549    3.2721e-01
    4329.549    3.2644e-01
    4335.549    3.3080e-01
    4341.549    3.3308e-01
    4347.549    3.2815e-01
    4353.549    3.3099e-01
    4359.549    3.3921e-01
    4365.549    3.3867e-01
    4371.549    3.3883e-01
    4377.549    3.4308e-01
    4383.549    3.4276e-01
    4389.549    3.3927e-01
    4395.549    3.4445e-01
    4401.549    3.4875e-01
    4407.549    3.4847e-01
    4413.549    3.4939e-01
    4419.549    3.5114e-01
    4425.549    3.4469e-01
    4431.549    3.4011e-01
    4437.549    3.4275e-01
    4443.549    3.4071e-01
    4449.549    3.3543e-01
    4455.549    3.3917e-01
    4461.549    3.4179e-01
    4467.549    3.3910e-01
    4473.549    3.4043e-01
    4479.549    3.4455e-01
    4485.549    3.4335e-01
    4491.549    3.4309e-01
    4497.549    3.4676e-01
    4503.549    3.4481e-01
    4509.549    3.3899e-01
    4515.549    3.4160e-01
    4521.549    3.4291e-01
    4527.549    3.3852e-01
    4533.549    3.4225e-01
    4539.549    3.5159e-01
    4545.549    3.5586e-01
    4551.549    3.5915e-01
    4557.549    3.6078e-01
    4563.549    3.6387e-01
    4569.549    3.6797e-01
    4575.549    3.6501e-01
    4581.549    3.6189e-01
    4587.549    3.5993e-01
    4593.549    3.5026e-01
    4599.549    3.3525e-01
    4605.549    3.4917e-01
    4611.549    3.5863e-01
    4617.549    3.4856e-01
    4623.549    3.4724e-01
    4629.549    3.5196e-01
    4635.549    3.4972e-01
    4641.549    3.4806e-01
    4647.549    3.4970e-01
    4653.549    3.4771e-01
    4659.549    3.4320e-01
    4665.549    3.4599e-01
    4671.549    3.4651e-01
    4677.549    3.3881e-01
    4683.549    3.3823e-01
    4689.549    3.4255e-01
    4695.549    3.3802e-01
    4701.549    3.3528e-01
    4707.549    3.3971e-01
    4713.549    3.3968e-01
    4719.549    3.3656e-01
    4725.549    3.3220e-01
    4731.549    3.3027e-01
    4737.549    3.3565e-01
    4743.549    3.3550e-01
    4749.549    3.3155e-01
    4755.549    3.3548e-01
    4761.549    3.3881e-01
    4767.549    3.3852e-01
    4773.549    3.3984e-01
    4779.549    3.4227e-01
    4785.549    3.3023e-01
    4791.549    3.1612e-01
    4797.549    2.9940e-01
    4803.549    2.6476e-01
    4809.549    2.1773e-01
    4815.549    1.8093e-01
    4821.549    1.4325e-01
    4827.549    1.0069e-01
    4833.549    6.8632e-02
    4839.549    4.3833e-02
    4845.549    2.9846e-02
    4851.549    1.8621e-02
    4857.549    1.2787e-02
    4863.549    8.6200e-03
    4869.549    5.5982e-03
    4875.549    4.1763e-03
    4881.549    3.0754e-03
    4887.549    2.5213e-03
    4893.549    1.9678e-03
    4899.549    1.4142e-03
    4905.549    1.2257e-03
    4911.549    1.0671e-03
    4917.549    9.0886e-04
    4923.549    7.5026e-04
    4929.549    5.9149e-04
    4935.549    4.3285e-04
    4941.549    3.0484e-04
    4947.549    2.6525e-04
    4953.549    2.2543e-04
    4959.549    1.8551e-04
    4965.549    1.4575e-04
    4971.549    1.0595e-04
    4977.549    6.6077e-05
    4983.549    4.6894e-05
    4989.549    4.2021e-05
    4995.549    3.7169e-05
    5001.549    3.2307e-05
    5007.549    2.7426e-05
    5013.549    2.2546e-05
    5019.549    1.7661e-05
    5025.549    1.6560e-05
    5031.549    1.5766e-05
    5037.549    1.4972e-05
    5043.549    1.4179e-05
    5049.549    1.3387e-05
    5055.549    1.2589e-05
    5061.549    1.1768e-05
    5067.549    1.0882e-05
    5073.549    9.9917e-06
    5079.549    9.0990e-06
    5085.549    8.2062e-06
    5091.549    7.3134e-06
    5097.549    6.4214e-06
    5103.549    5.7823e-06
    5109.549    5.3176e-06
    5115.549    4.8483e-06
    5121.549    4.3784e-06
    5127.549    3.9091e-06
    5133.549    3.4382e-06
    5139.549    2.9661e-06
    5145.549    3.0825e-06
    5151.549    3.2470e-06
    5157.549    3.4120e-06
    5163.549    3.5774e-06
    5169.549    3.7432e-06
    5175.549    3.9104e-06
    5181.549    4.0754e-06
    5187.549    4.2332e-06
    5193.549    4.3901e-06
    5199.549    4.5465e-06
    5205.549    4.7073e-06
    5211.549    4.8688e-06
    5217.549    5.0305e-06
    5223.549    4.9777e-06
    5229.549    4.7764e-06
    5235.549    4.5771e-06
    5241.549    4.3780e-06
    5247.549    4.1799e-06
    5253.549    3.9803e-06
    5259.549    3.7797e-06
    5265.549    3.5152e-06
    5271.549    3.2454e-06
    5277.549    2.9757e-06
    5283.549  0.
