#  wavelength (A)   throughput  
    3103.575  0.
    3121.575    5.8544e-12
    3139.575    4.3323e-12
    3157.575    3.3285e-12
    3175.575    6.5506e-12
    3193.575    3.2201e-11
    3211.575    1.6183e-10
    3229.575    6.4289e-10
    3247.575    2.1108e-09
    3265.575    5.3833e-09
    3283.575    1.1370e-08
    3301.575    2.0561e-08
    3319.575    3.2555e-08
    3337.575    4.6724e-08
    3355.575    6.1879e-08
    3373.575    7.7619e-08
    3391.575    9.3193e-08
    3409.575    1.1034e-07
    3427.575    1.2851e-07
    3445.575    1.4693e-07
    3463.575    1.6528e-07
    3481.575    1.8351e-07
    3499.575    2.0153e-07
    3517.575    2.1188e-07
    3535.575    2.2108e-07
    3553.575    2.2923e-07
    3571.575    2.3647e-07
    3589.575    2.4296e-07
    3607.575    2.4974e-07
    3625.575    2.5674e-07
    3643.575    2.6324e-07
    3661.575    2.6966e-07
    3679.575    2.7534e-07
    3697.575    2.8089e-07
    3715.575    2.8638e-07
    3733.575    2.9193e-07
    3751.575    2.9751e-07
    3769.575    3.0318e-07
    3787.575    3.0901e-07
    3805.575    3.1444e-07
    3823.575    3.1665e-07
    3841.575    3.1990e-07
    3859.575    3.2358e-07
    3877.575    3.2702e-07
    3895.575    3.3088e-07
    3913.575    3.3449e-07
    3931.575    3.3738e-07
    3949.575    3.3941e-07
    3967.575    3.4066e-07
    3985.575    3.4119e-07
    4003.575    3.5832e-07
    4021.575    4.4700e-07
    4039.575    5.3894e-07
    4057.575    6.3160e-07
    4075.575    7.2752e-07
    4093.575    8.2548e-07
    4111.575    9.2412e-07
    4129.575    1.0241e-06
    4147.575    1.1276e-06
    4165.575    1.2297e-06
    4183.575    1.3349e-06
    4201.575    1.4377e-06
    4219.575    1.5403e-06
    4237.575    1.6414e-06
    4255.575    1.7409e-06
    4273.575    1.8432e-06
    4291.575    1.9426e-06
    4309.575    2.0428e-06
    4327.575    2.1453e-06
    4345.575    2.2443e-06
    4363.575    2.4138e-06
    4381.575    2.8708e-06
    4399.575    3.3226e-06
    4417.575    3.4467e-06
    4435.575    3.5532e-06
    4453.575    3.7164e-06
    4471.575    3.8947e-06
    4489.575    4.0145e-06
    4507.575    4.0891e-06
    4525.575    4.4560e-06
    4543.575    5.4710e-06
    4561.575    2.2226e-05
    4579.575    2.0305e-04
    4597.575    3.8337e-04
    4615.575    2.0138e-03
    4633.575    6.6660e-03
    4651.575    1.9791e-02
    4669.575    4.5724e-02
    4687.575    8.4232e-02
    4705.575    1.0975e-01
    4723.575    1.4605e-01
    4741.575    1.8215e-01
    4759.575    1.9384e-01
    4777.575    2.6119e-01
    4795.575    2.3609e-01
    4813.575    3.1362e-01
    4831.575    3.1681e-01
    4849.575    3.4683e-01
    4867.575    3.4570e-01
    4885.575    3.3701e-01
    4903.575    3.0186e-01
    4921.575    3.1396e-01
    4939.575    3.5337e-01
    4957.575    3.5187e-01
    4975.575    3.3011e-01
    4993.575    3.6392e-01
    5011.575    3.7577e-01
    5029.575    3.4663e-01
    5047.575    3.1437e-01
    5065.575    3.3559e-01
    5083.575    3.6314e-01
    5101.575    3.4687e-01
    5119.575    3.4605e-01
    5137.575    3.5987e-01
    5155.575    3.7633e-01
    5173.575    3.6303e-01
    5191.575    3.5955e-01
    5209.575    3.7194e-01
    5227.575    3.5005e-01
    5245.575    3.5597e-01
    5263.575    3.5982e-01
    5281.575    3.7125e-01
    5299.575    3.7722e-01
    5317.575    3.5284e-01
    5335.575    3.7008e-01
    5353.575    3.9538e-01
    5371.575    3.8554e-01
    5389.575    3.7628e-01
    5407.575    3.4744e-01
    5425.575    3.7680e-01
    5443.575    4.0156e-01
    5461.575    4.0447e-01
    5479.575    4.1282e-01
    5497.575    4.0640e-01
    5515.575    3.8736e-01
    5533.575    3.9868e-01
    5551.575    4.0654e-01
    5569.575    4.0572e-01
    5587.575    4.0507e-01
    5605.575    3.9048e-01
    5623.575    3.8845e-01
    5641.575    4.0979e-01
    5659.575    4.0313e-01
    5677.575    3.9482e-01
    5695.575    4.0662e-01
    5713.575    4.1082e-01
    5731.575    4.0622e-01
    5749.575    3.8858e-01
    5767.575    3.8460e-01
    5785.575    3.9503e-01
    5803.575    4.1549e-01
    5821.575    4.2064e-01
    5839.575    4.1067e-01
    5857.575    4.1175e-01
    5875.575    4.1308e-01
    5893.575    4.1233e-01
    5911.575    4.1471e-01
    5929.575    4.2139e-01
    5947.575    3.9107e-01
    5965.575    4.0791e-01
    5983.575    4.0891e-01
    6001.575    4.0746e-01
    6019.575    4.1400e-01
    6037.575    4.1795e-01
    6055.575    4.2785e-01
    6073.575    4.1768e-01
    6091.575    4.2647e-01
    6109.575    4.2518e-01
    6127.575    4.3338e-01
    6145.575    4.3514e-01
    6163.575    4.1777e-01
    6181.575    3.8639e-01
    6199.575    3.7338e-01
    6217.575    3.7489e-01
    6235.575    4.1010e-01
    6253.575    4.3133e-01
    6271.575    4.3540e-01
    6289.575    4.2726e-01
    6307.575    4.2371e-01
    6325.575    4.2085e-01
    6343.575    4.2557e-01
    6361.575    4.5235e-01
    6379.575    4.3190e-01
    6397.575    4.0088e-01
    6415.575    4.0307e-01
    6433.575    4.1137e-01
    6451.575    4.2786e-01
    6469.575    4.3309e-01
    6487.575    4.3489e-01
    6505.575    4.2454e-01
    6523.575    4.1002e-01
    6541.575    4.2171e-01
    6559.575    4.3511e-01
    6577.575    4.2702e-01
    6595.575    4.1780e-01
    6613.575    4.0200e-01
    6631.575    4.1643e-01
    6649.575    4.4595e-01
    6667.575    4.5272e-01
    6685.575    4.5426e-01
    6703.575    4.3360e-01
    6721.575    4.2130e-01
    6739.575    4.1003e-01
    6757.575    4.1639e-01
    6775.575    4.3416e-01
    6793.575    4.2371e-01
    6811.575    4.1451e-01
    6829.575    4.0269e-01
    6847.575    4.0933e-01
    6865.575    4.2258e-01
    6883.575    4.2435e-01
    6901.575    4.0781e-01
    6919.575    3.8831e-01
    6937.575    3.7866e-01
    6955.575    3.8939e-01
    6973.575    4.1878e-01
    6991.575    4.1298e-01
    7009.575    4.1154e-01
    7027.575    4.0042e-01
    7045.575    4.0824e-01
    7063.575    4.1751e-01
    7081.575    3.2230e-01
    7099.575    1.2319e-01
    7117.575    5.2331e-02
    7135.575    3.0132e-02
    7153.575    1.8851e-02
    7171.575    8.0481e-03
    7189.575    2.5429e-03
    7207.575    1.1402e-03
    7225.575    6.7178e-04
    7243.575    3.4329e-04
    7261.575    1.8042e-04
    7279.575    1.0923e-04
    7297.575    6.0985e-05
    7315.575    4.4002e-05
    7333.575    3.0072e-05
    7351.575    2.7999e-05
    7369.575    2.5962e-05
    7387.575    2.2685e-05
    7405.575    1.9403e-05
    7423.575    1.4558e-05
    7441.575    9.2293e-06
    7459.575    6.3744e-06
    7477.575    5.6697e-06
    7495.575    4.9289e-06
    7513.575    4.0979e-06
    7531.575    3.3097e-06
    7549.575    2.8712e-06
    7567.575    2.4374e-06
    7585.575    2.4221e-06
    7603.575    2.4724e-06
    7621.575    2.9312e-06
    7639.575    3.6140e-06
    7657.575    3.8667e-06
    7675.575    3.5466e-06
    7693.575    3.2067e-06
    7711.575    2.7845e-06
    7729.575    2.3641e-06
    7747.575    2.2361e-06
    7765.575    2.1118e-06
    7783.575    1.8321e-06
    7801.575    1.5043e-06
    7819.575    1.2273e-06
    7837.575    9.9728e-07
    7855.575    8.7014e-07
    7873.575    9.6258e-07
    7891.575    1.0615e-06
    7909.575    1.2389e-06
    7927.575    1.4132e-06
    7945.575    1.4534e-06
    7963.575    1.4699e-06
    7981.575    1.4581e-06
    7999.575    1.4369e-06
    8017.575    1.4765e-06
    8035.575    1.6159e-06
    8053.575    1.6939e-06
    8071.575    1.5316e-06
    8089.575    1.3766e-06
    8107.575    1.1025e-06
    8125.575    8.2976e-07
    8143.575    7.2443e-07
    8161.575    6.7467e-07
    8179.575    6.9749e-07
    8197.575    7.8511e-07
    8215.575    8.2009e-07
    8233.575    7.3833e-07
    8251.575    6.6841e-07
    8269.575    6.8375e-07
    8287.575    6.9908e-07
    8305.575    7.1159e-07
    8323.575    7.2545e-07
    8341.575    7.3907e-07
    8359.575    7.2740e-07
    8377.575    6.9132e-07
    8395.575    6.5861e-07
    8413.575    6.2270e-07
    8431.575    5.8801e-07
    8449.575    5.5329e-07
    8467.575    5.1528e-07
    8485.575    4.7920e-07
    8503.575    4.5418e-07
    8521.575    4.7828e-07
    8539.575    5.0038e-07
    8557.575    5.2313e-07
    8575.575    5.4504e-07
    8593.575    5.6577e-07
    8611.575    5.6602e-07
    8629.575    5.5432e-07
    8647.575    5.4313e-07
    8665.575    5.3244e-07
    8683.575    5.2132e-07
    8701.575    5.0565e-07
    8719.575    4.3150e-07
    8737.575  0.
