#  F625W  wavelength (A)   throughput  
    4566.054  0.
    4577.054    4.5771e-06
    4588.054    4.6642e-06
    4599.054    4.6958e-06
    4610.054    4.7255e-06
    4621.054    4.7605e-06
    4632.054    4.8803e-06
    4643.054    4.9955e-06
    4654.054    5.1127e-06
    4665.054    5.1856e-06
    4676.054    5.2051e-06
    4687.054    5.2243e-06
    4698.054    5.2438e-06
    4709.054    5.8235e-06
    4720.054    6.5139e-06
    4731.054    7.2115e-06
    4742.054    7.7200e-06
    4753.054    7.4199e-06
    4764.054    7.1262e-06
    4775.054    6.8309e-06
    4786.054    6.7812e-06
    4797.054    6.9307e-06
    4808.054    7.0835e-06
    4819.054    7.2380e-06
    4830.054    7.1359e-06
    4841.054    7.0103e-06
    4852.054    6.8758e-06
    4863.054    6.7929e-06
    4874.054    6.8415e-06
    4885.054    6.8844e-06
    4896.054    6.9333e-06
    4907.054    7.1130e-06
    4918.054    7.3693e-06
    4929.054    7.6238e-06
    4940.054    7.8786e-06
    4951.054    7.1004e-06
    4962.054    6.3099e-06
    4973.054    5.5283e-06
    4984.054    5.2362e-06
    4995.054    5.7913e-06
    5006.054    6.2395e-06
    5017.054    6.5990e-06
    5028.054    6.6924e-06
    5039.054    6.6892e-06
    5050.054    6.6887e-06
    5061.054    6.7141e-06
    5072.054    7.0113e-06
    5083.054    7.3054e-06
    5094.054    7.6029e-06
    5105.054    7.8162e-06
    5116.054    7.9202e-06
    5127.054    8.0238e-06
    5138.054    8.1273e-06
    5149.054    8.1546e-06
    5160.054    8.1669e-06
    5171.054    8.1806e-06
    5182.054    8.1787e-06
    5193.054    8.0880e-06
    5204.054    7.9980e-06
    5215.054    7.9163e-06
    5226.054    8.0884e-06
    5237.054    8.4738e-06
    5248.054    8.8680e-06
    5259.054    9.2605e-06
    5270.054    9.2982e-06
    5281.054    9.3068e-06
    5292.054    9.3026e-06
    5303.054    9.3723e-06
    5314.054    9.6051e-06
    5325.054    9.8408e-06
    5336.054    1.0072e-05
    5347.054    1.5764e-05
    5358.054    2.4524e-05
    5369.054    3.3321e-05
    5380.054    4.3550e-05
    5391.054    3.4134e-04
    5402.054    6.3991e-04
    5413.054    9.3991e-04
    5424.054    1.6152e-03
    5435.054    2.9351e-03
    5446.054    5.4701e-03
    5457.054    1.0205e-02
    5468.054    1.7823e-02
    5479.054    2.9418e-02
    5490.054    4.2358e-02
    5501.054    5.2154e-02
    5512.054    7.0714e-02
    5523.054    9.6885e-02
    5534.054    1.2039e-01
    5545.054    1.4096e-01
    5556.054    1.6088e-01
    5567.054    1.8098e-01
    5578.054    2.0005e-01
    5589.054    2.1403e-01
    5600.054    2.1981e-01
    5611.054    2.3392e-01
    5622.054    2.4987e-01
    5633.054    2.6880e-01
    5644.054    2.8082e-01
    5655.054    2.8863e-01
    5666.054    2.9522e-01
    5677.054    3.0690e-01
    5688.054    3.1012e-01
    5699.054    3.0638e-01
    5710.054    2.9872e-01
    5721.054    3.0650e-01
    5732.054    3.2075e-01
    5743.054    3.3490e-01
    5754.054    3.3995e-01
    5765.054    3.3782e-01
    5776.054    3.3800e-01
    5787.054    3.4244e-01
    5798.054    3.5544e-01
    5809.054    3.5787e-01
    5820.054    3.5723e-01
    5831.054    3.5724e-01
    5842.054    3.6525e-01
    5853.054    3.7279e-01
    5864.054    3.7238e-01
    5875.054    3.6782e-01
    5886.054    3.6886e-01
    5897.054    3.7509e-01
    5908.054    3.7711e-01
    5919.054    3.7257e-01
    5930.054    3.6931e-01
    5941.054    3.6508e-01
    5952.054    3.7175e-01
    5963.054    3.8256e-01
    5974.054    3.8691e-01
    5985.054    3.8263e-01
    5996.054    3.7398e-01
    6007.054    3.7308e-01
    6018.054    3.7974e-01
    6029.054    3.9369e-01
    6040.054    3.9968e-01
    6051.054    4.0143e-01
    6062.054    4.0055e-01
    6073.054    3.9656e-01
    6084.054    3.9726e-01
    6095.054    3.9604e-01
    6106.054    3.8525e-01
    6117.054    3.7958e-01
    6128.054    3.8697e-01
    6139.054    4.0032e-01
    6150.054    4.1576e-01
    6161.054    4.1868e-01
    6172.054    4.1375e-01
    6183.054    4.0531e-01
    6194.054    4.0669e-01
    6205.054    4.1100e-01
    6216.054    4.1806e-01
    6227.054    4.2335e-01
    6238.054    4.2278e-01
    6249.054    4.2019e-01
    6260.054    4.2653e-01
    6271.054    4.2882e-01
    6282.054    4.2735e-01
    6293.054    4.2035e-01
    6304.054    4.0345e-01
    6315.054    3.9210e-01
    6326.054    3.9377e-01
    6337.054    4.1209e-01
    6348.054    4.2393e-01
    6359.054    4.3615e-01
    6370.054    4.3759e-01
    6381.054    4.3094e-01
    6392.054    4.3654e-01
    6403.054    4.3899e-01
    6414.054    4.3799e-01
    6425.054    4.3348e-01
    6436.054    4.2587e-01
    6447.054    4.2438e-01
    6458.054    4.2527e-01
    6469.054    4.3443e-01
    6480.054    4.4202e-01
    6491.054    4.3392e-01
    6502.054    4.1937e-01
    6513.054    4.0412e-01
    6524.054    4.0088e-01
    6535.054    4.0414e-01
    6546.054    4.1788e-01
    6557.054    4.2946e-01
    6568.054    4.3188e-01
    6579.054    4.2849e-01
    6590.054    4.3460e-01
    6601.054    4.3245e-01
    6612.054    4.4185e-01
    6623.054    4.4125e-01
    6634.054    4.4060e-01
    6645.054    4.3598e-01
    6656.054    4.3102e-01
    6667.054    4.3304e-01
    6678.054    4.3863e-01
    6689.054    4.4192e-01
    6700.054    4.3446e-01
    6711.054    4.3092e-01
    6722.054    4.2328e-01
    6733.054    4.2622e-01
    6744.054    4.2938e-01
    6755.054    4.3566e-01
    6766.054    4.3720e-01
    6777.054    4.3307e-01
    6788.054    4.3073e-01
    6799.054    4.2815e-01
    6810.054    4.3403e-01
    6821.054    4.2581e-01
    6832.054    4.2313e-01
    6843.054    4.1764e-01
    6854.054    4.1514e-01
    6865.054    4.1618e-01
    6876.054    4.1664e-01
    6887.054    4.1563e-01
    6898.054    4.1041e-01
    6909.054    4.0610e-01
    6920.054    4.0624e-01
    6931.054    4.1133e-01
    6942.054    4.1053e-01
    6953.054    4.0443e-01
    6964.054    3.9340e-01
    6975.054    3.8001e-01
    6986.054    3.6325e-01
    6997.054    3.3677e-01
    7008.054    2.8393e-01
    7019.054    2.0698e-01
    7030.054    1.4096e-01
    7041.054    9.7363e-02
    7052.054    6.8635e-02
    7063.054    4.2908e-02
    7074.054    2.2531e-02
    7085.054    1.0982e-02
    7096.054    5.3984e-03
    7107.054    2.9333e-03
    7118.054    1.8208e-03
    7129.054    1.3165e-03
    7140.054    8.9444e-04
    7151.054    7.2325e-04
    7162.054    5.5247e-04
    7173.054    3.8265e-04
    7184.054    2.5639e-04
    7195.054    2.0480e-04
    7206.054    1.5329e-04
    7217.054    1.0187e-04
    7228.054    8.1533e-05
    7239.054    7.2613e-05
    7250.054    6.3729e-05
    7261.054    5.4870e-05
    7272.054    4.6405e-05
    7283.054    3.7947e-05
    7294.054    2.9524e-05
    7305.054    2.3507e-05
    7316.054    2.0293e-05
    7327.054    1.7096e-05
    7338.054    1.3904e-05
    7349.054    1.3763e-05
    7360.054    1.4284e-05
    7371.054    1.4805e-05
    7382.054    1.5135e-05
    7393.054    1.4636e-05
    7404.054    1.4146e-05
    7415.054    1.3643e-05
    7426.054    1.2628e-05
    7437.054    1.1185e-05
    7448.054    9.7513e-06
    7459.054    8.3255e-06
    7470.054    8.5026e-06
    7481.054    8.8275e-06
    7492.054    9.1541e-06
    7503.054    9.3733e-06
    7514.054    9.3261e-06
    7525.054    9.2838e-06
    7536.054    9.2321e-06
    7547.054    8.5389e-06
    7558.054    7.4909e-06
    7569.054    6.4397e-06
    7580.054    5.3989e-06
    7591.054    5.3868e-06
    7602.054    5.3720e-06
    7613.054    5.3608e-06
    7624.054    5.5686e-06
    7635.054    6.1630e-06
    7646.054    6.7491e-06
    7657.054    7.3311e-06
    7668.054    7.0722e-06
    7679.054    6.5061e-06
    7690.054    5.9435e-06
    7701.054    5.3904e-06
    7712.054    4.8701e-06
    7723.054    4.3503e-06
    7734.054    3.8351e-06
    7745.054    3.7363e-06
    7756.054    4.1199e-06
    7767.054    4.4888e-06
    7778.054    4.8643e-06
    7789.054    5.0815e-06
    7800.054    5.2592e-06
    7811.054    5.4344e-06
    7822.054    5.4367e-06
    7833.054    4.7364e-06
    7844.054    4.0430e-06
    7855.054    3.3558e-06
    7866.054    2.9645e-06
    7877.054    2.8150e-06
    7888.054    2.6665e-06
    7899.054    2.5187e-06
    7910.054    2.6408e-06
    7921.054    2.7858e-06
    7932.054    2.9322e-06
    7943.054    3.0502e-06
    7954.054    3.0941e-06
    7965.054    3.1386e-06
    7976.054    3.1842e-06
    7987.054    3.1277e-06
    7998.054    3.0079e-06
    8009.054    2.8774e-06
    8020.054    2.7523e-06
    8031.054    2.9102e-06
    8042.054    3.0633e-06
    8053.054  0.
