#  wavelength (A)   throughput  
   45740.520  0.
   45812.520    3.1909e-04
   45884.520    3.1609e-04
   45956.520    3.1308e-04
   46028.520    3.0975e-04
   46100.520    2.8747e-04
   46172.520    2.6520e-04
   46244.520    2.4293e-04
   46316.520    2.3931e-04
   46388.520    2.6443e-04
   46460.520    2.8954e-04
   46532.520    3.1466e-04
   46604.520    3.0255e-04
   46676.520    2.7931e-04
   46748.520    2.5607e-04
   46820.520    2.3249e-04
   46892.520    2.0687e-04
   46964.520    1.8124e-04
   47036.520    1.5562e-04
   47108.520    1.4585e-04
   47180.520    1.5058e-04
   47252.520    1.5531e-04
   47324.520    1.6003e-04
   47396.520    1.5339e-04
   47468.520    1.4546e-04
   47540.520    1.3753e-04
   47612.520    1.4430e-04
   47684.520    1.8985e-04
   47756.520    2.3540e-04
   47828.520    2.8094e-04
   47900.520    2.8112e-04
   47972.520    2.5698e-04
   48044.520    2.3285e-04
   48116.520    2.0914e-04
   48188.520    2.0053e-04
   48260.520    1.9192e-04
   48332.520    1.8331e-04
   48404.520    1.9170e-04
   48476.520    2.2521e-04
   48548.520    2.5871e-04
   48620.520    2.9222e-04
   48692.520    3.3650e-04
   48764.520    3.8383e-04
   48836.520    4.3116e-04
   48908.520    4.8008e-04
   48980.520    5.3762e-04
   49052.520    5.9516e-04
   49124.520    6.5270e-04
   49196.520    2.3975e-03
   49268.520    5.6236e-03
   49340.520    8.8497e-03
   49412.520    1.2076e-02
   49484.520    2.5290e-02
   49556.520    3.9507e-02
   49628.520    5.3724e-02
   49700.520    6.9809e-02
   49772.520    9.0581e-02
   49844.520    1.1135e-01
   49916.520    1.3212e-01
   49988.520    1.5083e-01
   50060.520    1.6848e-01
   50132.520    1.8614e-01
   50204.520    2.0337e-01
   50276.520    2.0981e-01
   50348.520    2.1625e-01
   50420.520    2.2268e-01
   50492.520    2.2609e-01
   50564.520    2.2520e-01
   50636.520    2.2431e-01
   50708.520    2.2342e-01
   50780.520    2.3021e-01
   50852.520    2.3904e-01
   50924.520    2.4787e-01
   50996.520    2.5619e-01
   51068.520    2.6191e-01
   51140.520    2.6763e-01
   51212.520    2.7335e-01
   51284.520    2.7527e-01
   51356.520    2.7399e-01
   51428.520    2.7271e-01
   51500.520    2.7143e-01
   51572.520    2.6905e-01
   51644.520    2.6658e-01
   51716.520    2.6410e-01
   51788.520    2.6238e-01
   51860.520    2.6244e-01
   51932.520    2.6250e-01
   52004.520    2.6257e-01
   52076.520    2.6540e-01
   52148.520    2.6960e-01
   52220.520    2.7379e-01
   52292.520    2.7786e-01
   52364.520    2.7930e-01
   52436.520    2.8073e-01
   52508.520    2.8217e-01
   52580.520    2.8095e-01
   52652.520    2.7610e-01
   52724.520    2.7126e-01
   52796.520    2.6642e-01
   52868.520    2.6207e-01
   52940.520    2.5785e-01
   53012.520    2.5363e-01
   53084.520    2.5075e-01
   53156.520    2.5414e-01
   53228.520    2.5753e-01
   53300.520    2.6092e-01
   53372.520    2.6483e-01
   53444.520    2.6917e-01
   53516.520    2.7351e-01
   53588.520    2.7784e-01
   53660.520    2.7862e-01
   53732.520    2.7913e-01
   53804.520    2.7963e-01
   53876.520    2.7968e-01
   53948.520    2.7871e-01
   54020.520    2.7774e-01
   54092.520    2.7676e-01
   54164.520    2.7528e-01
   54236.520    2.7355e-01
   54308.520    2.7183e-01
   54380.520    2.7012e-01
   54452.520    2.6881e-01
   54524.520    2.6750e-01
   54596.520    2.6619e-01
   54668.520    2.6503e-01
   54740.520    2.6407e-01
   54812.520    2.6311e-01
   54884.520    2.6215e-01
   54956.520    2.6102e-01
   55028.520    2.5985e-01
   55100.520    2.5867e-01
   55172.520    2.5776e-01
   55244.520    2.5801e-01
   55316.520    2.5826e-01
   55388.520    2.5851e-01
   55460.520    2.6031e-01
   55532.520    2.6333e-01
   55604.520    2.6635e-01
   55676.520    2.6937e-01
   55748.520    2.6948e-01
   55820.520    2.6940e-01
   55892.520    2.6932e-01
   55964.520    2.6871e-01
   56036.520    2.6695e-01
   56108.520    2.6519e-01
   56180.520    2.6342e-01
   56252.520    2.6278e-01
   56324.520    2.6264e-01
   56396.520    2.6249e-01
   56468.520    2.6246e-01
   56540.520    2.6398e-01
   56612.520    2.6550e-01
   56684.520    2.6702e-01
   56756.520    2.6779e-01
   56828.520    2.6763e-01
   56900.520    2.6748e-01
   56972.520    2.6732e-01
   57044.520    2.6630e-01
   57116.520    2.6509e-01
   57188.520    2.6388e-01
   57260.520    2.6328e-01
   57332.520    2.6516e-01
   57404.520    2.6705e-01
   57476.520    2.6893e-01
   57548.520    2.6958e-01
   57620.520    2.6932e-01
   57692.520    2.6905e-01
   57764.520    2.6879e-01
   57836.520    2.6650e-01
   57908.520    2.6411e-01
   57980.520    2.6171e-01
   58052.520    2.6033e-01
   58124.520    2.6105e-01
   58196.520    2.6177e-01
   58268.520    2.6249e-01
   58340.520    2.6303e-01
   58412.520    2.6350e-01
   58484.520    2.6397e-01
   58556.520    2.6442e-01
   58628.520    2.6469e-01
   58700.520    2.6495e-01
   58772.520    2.6522e-01
   58844.520    2.6512e-01
   58916.520    2.6457e-01
   58988.520    2.6402e-01
   59060.520    2.6347e-01
   59132.520    2.6221e-01
   59204.520    2.6079e-01
   59276.520    2.5938e-01
   59348.520    2.5820e-01
   59420.520    2.5794e-01
   59492.520    2.5768e-01
   59564.520    2.5741e-01
   59636.520    2.5795e-01
   59708.520    2.5905e-01
   59780.520    2.6015e-01
   59852.520    2.6126e-01
   59924.520    2.5998e-01
   59996.520    2.5860e-01
   60068.520    2.5721e-01
   60140.520    2.5568e-01
   60212.520    2.5382e-01
   60284.520    2.5197e-01
   60356.520    2.5012e-01
   60428.520    2.4960e-01
   60500.520    2.4961e-01
   60572.520    2.4963e-01
   60644.520    2.4959e-01
   60716.520    2.4907e-01
   60788.520    2.4855e-01
   60860.520    2.4803e-01
   60932.520    2.4681e-01
   61004.520    2.4478e-01
   61076.520    2.4275e-01
   61148.520    2.4072e-01
   61220.520    2.3846e-01
   61292.520    2.3615e-01
   61364.520    2.3385e-01
   61436.520    2.3191e-01
   61508.520    2.3133e-01
   61580.520    2.3075e-01
   61652.520    2.3018e-01
   61724.520    2.3033e-01
   61796.520    2.3098e-01
   61868.520    2.3163e-01
   61940.520    2.3229e-01
   62012.520    2.3165e-01
   62084.520    2.3098e-01
   62156.520    2.3030e-01
   62228.520    2.2855e-01
   62300.520    2.2475e-01
   62372.520    2.2094e-01
   62444.520    2.1714e-01
   62516.520    2.1417e-01
   62588.520    2.1152e-01
   62660.520    2.0886e-01
   62732.520    2.0663e-01
   62804.520    2.0821e-01
   62876.520    2.0979e-01
   62948.520    2.1137e-01
   63020.520    2.1287e-01
   63092.520    2.1427e-01
   63164.520    2.1568e-01
   63236.520    2.1709e-01
   63308.520    2.1644e-01
   63380.520    2.1544e-01
   63452.520    2.1443e-01
   63524.520    2.1263e-01
   63596.520    2.0811e-01
   63668.520    2.0358e-01
   63740.520    1.9906e-01
   63812.520    1.9044e-01
   63884.520    1.7912e-01
   63956.520    1.6780e-01
   64028.520    1.5648e-01
   64100.520    1.4446e-01
   64172.520    1.3243e-01
   64244.520    1.2041e-01
   64316.520    1.0785e-01
   64388.520    9.4349e-02
   64460.520    8.0846e-02
   64532.520    6.7343e-02
   64604.520    5.4842e-02
   64676.520    4.2706e-02
   64748.520    3.0571e-02
   64820.520    1.9267e-02
   64892.520    1.4824e-02
   64964.520    1.0380e-02
   65036.520    5.9366e-03
   65108.520    3.2639e-03
   65180.520    2.4758e-03
   65252.520    1.6876e-03
   65324.520    8.9949e-04
   65396.520    6.5612e-04
   65468.520    5.0093e-04
   65540.520    3.4574e-04
   65612.520    2.2436e-04
   65684.520    2.1182e-04
   65756.520    1.9927e-04
   65828.520    1.8672e-04
   65900.520    1.7396e-04
   65972.520    1.6105e-04
   66044.520    1.4814e-04
   66116.520    1.3523e-04
   66188.520    1.4087e-04
   66260.520    1.4671e-04
   66332.520    1.5255e-04
   66404.520    1.5278e-04
   66476.520    1.4328e-04
   66548.520    1.3377e-04
   66620.520    1.2427e-04
   66692.520    1.0743e-04
   66764.520    8.8032e-05
   66836.520    6.8638e-05
   66908.520    5.1719e-05
   66980.520    5.3248e-05
   67052.520    5.4776e-05
   67124.520    5.6304e-05
   67196.520    6.0254e-05
   67268.520    6.6678e-05
   67340.520    7.3103e-05
   67412.520    7.9527e-05
   67484.520    1.0129e-04
   67556.520    1.2532e-04
   67628.520    1.4936e-04
   67700.520  0.
